File: XRD Datasets
           As
     2Î¸         Intensity
20.0263 1304.0093310134920.02626056 1477.01
20.1323 1455.41
20.2383 1514.7
20.3443 1483.86
20.4503 1522.82
20.5563 1516.28
20.6623 1457.16
20.7683 1467.33
20.8743 1493.36
20.9803 1442.87
21.0863 1442.5
21.1923 1511.52
21.2983 1509.35
21.4043 1472.35
21.5103 1510.97
21.6163 1445.13
21.7223 1412.71
21.8283 1440.89
21.9343 1447.25
22.0403 1465.25
22.1463 1453.96
22.2523 1424.58
22.3583 1443.89
22.4643 1408.56
22.5703 1403.07
22.6763 1386.08
22.7823 1433.27
22.8883 1433.89
22.9943 1469.8
23.1003 1432.41
23.2063 1462.1
23.3123 1383.27
23.4183 1431.84
23.5243 1425.04
23.6303 1414.72
23.7363 1498.24
23.8423 1433.44
23.9483 1407.09
24.0543 1454.8
24.1603 1418.33
24.2663 1385.28
24.3723 1403.89
24.4783 1439.98
24.5843 1434.1
24.6903 1432.08
24.7963 1344.03
24.9023 1483.51
25.0083 1383.14
25.1143 1381.38
25.2203 1397.85
25.3263 1351.42
25.4323 1351.03
25.5383 1412.53
25.6443 1385.08
25.7503 1375.05
25.8563 1382.19
25.9623 1444.84
26.0683 1388.42
26.1743 1381.78
26.2803 1411.05
26.3863 1283.06
26.4923 1413.95
26.5983 1402.92
26.7043 1387.28
26.8103 1360.82
26.9163 1375.05
27.0223 1427.77
27.1283 1376.98
27.2343 1328.61
27.3403 1405.89
27.4463 1370.96
27.5523 1407.26
27.6583 1374.51
27.7643 1413.92
27.8703 1389.1
27.9763 1431.76
28.0823 1428.73
28.1883 1368.63
28.2943 1402.08
28.4003 1411.01
28.5063 1413.03
28.6123 1428.78
28.7183 1439.24
28.8243 1395.04
28.9303 1421.65
29.0363 1418.86
29.1423 1389.92
29.2483 1469.21
29.3543 1504.8
29.4603 1444.12
29.5663 1456.98
29.6723 1412.71
29.7783 1435.45
29.8843 1402.7
29.9903 1444.3
30.0963 1420.34
30.2023 1486.84
30.3083 1421.69
30.4143 1428.66
30.5203 1432.61
30.6263 1430.3
30.7323 1426.97
30.8383 1444.2
30.9443 1493.77
31.0503 1439.28
31.1563 1461.99
31.2623 1417.64
31.3683 1439.76
31.4743 1410.08
31.5803 1469.13
31.6863 1512.43
31.7923 1468.5
31.8983 1454.25
32.0043 1440
32.1103 1434.37
32.2163 1432.5
32.3223 1427.89
32.4283 1509.21
32.5343 1454.09
32.6403 1437.33
32.7463 1403.46
32.8523 1383.77
32.9583 1464.13
33.0643 1435.3
33.1703 1412.25
33.2763 1480.33
33.3823 1437.11
33.4883 1415.22
33.5943 1464.61
33.7003 1519.06
33.8063 1450.83
33.9123 1497.51
34.0183 1439.82
34.1243 1507.41
34.2303 1434.89
34.3363 1493.79
34.4423 1465.73
34.5483 1506.28
34.6543 1433.25
34.7603 1480.25
34.8663 1513.8
34.9723 1481.57
35.0783 1434.73
35.1843 1465.41
35.2903 1441.51
35.3963 1511.77
35.5023 1496.71
35.6083 1519.53
35.7143 1480.86
35.8203 1489.6
35.9263 1511.39
36.0323 1534.93
36.1383 1528.75
36.2443 1462.23
36.3503 1511.01
36.4563 1547.56
36.5623 1508.23
36.6683 1498.08
36.7743 1571.6
36.8803 1490.86
36.9863 1430.79
37.0923 1530.45
37.1983 1451.37
37.3043 1469.67
37.4103 1506.38
37.5163 1506.24
37.6223 1486.18
37.7283 1514.69
37.8343 1516.31
37.9403 1504.46
38.0463 1501.51
38.1523 1478.77
38.2583 1470.97
38.3643 1512.88
38.4703 1502.54
38.5763 1491.29
38.6823 1548.18
38.7883 1555.51
38.8943 1513.04
39.0003 1543.62
39.1063 1553.14
39.2123 1484.19
39.3183 1512.01
39.4243 1524.87
39.5303 1522.29
39.6363 1550.58
39.7423 1527.58
39.8483 1537.47
39.9543 1547.15
40.0603 1567.94
40.1663 1576.35
40.2723 1533.05
40.3783 1574.93
40.4843 1603.82
40.5903 1556.44
40.6963 1566.27
40.8023 1527.2
40.9083 1610.16
41.0143 1626.09
41.1203 1538.12
41.2263 1560.83
41.3323 1530.62
41.4383 1534.33
41.5443 1582.96
41.6503 1583.69
41.7563 1594.38
41.8623 1551.95
41.9683 1618.02
42.0743 1545.02
42.1803 1570.69
42.2863 1638.7
42.3923 1638.18
42.4983 1649.73
42.6043 1602.73
42.7103 1561.61
42.8163 1604.12
42.9223 1568.21
43.0283 1579.44
43.1343 1572.42
43.2403 1667.81
43.3463 1526.48
43.4523 1644.42
43.5583 1500.77
43.6643 1594.54
43.7703 1589.06
43.8763 1624.45
43.9823 1491.92
44.0883 1561.24
44.1943 1640.23
44.3003 1611.6
44.4063 1625.56
44.5123 1657.19
44.6183 1565.17
44.7243 1568.8
44.8303 1641.83
44.9363 1601.59
45.0423 1603.85
45.1483 1604.08
45.2543 1653.21
45.3603 1602
45.4663 1615.58
45.5723 1659.38
45.6783 1602.73
45.7843 1607.38
45.8903 1545.57
45.9963 1628.74
46.1023 1710.55
46.2083 1693.15
46.3143 1644.77
46.4203 1682.28
46.5263 1650.66
46.6323 1690.65
46.7383 1709.01
46.8443 1711.8
46.9503 1739.71
47.0563 1696.96
47.1623 1736.96
47.2683 1678.82
47.3743 1749.86
47.4803 1706.05
47.5863 1710.77
47.6923 1685.88
47.7983 1738.35
47.9043 1674.62
48.0103 1655.69
48.1163 1679.42
48.2223 1730.06
48.3283 1741.23
48.4343 1742.21
48.5403 1746.56
48.6463 1799.02
48.7523 1721.47
48.8583 1799.09
48.9643 1721.14
49.0703 1748.32
49.1763 1790.23
49.2823 1763.78
49.3883 1796.4
49.4943 1792.64
49.6003 1840.18
49.7063 1850.46
49.8123 1824.3
49.9183 1880.7
50.0243 1922.74
50.1303 2060.46
50.2363 2139.74
50.3423 2206.36
50.4483 2484.77
50.5543 2959.59
50.6603 3268.45
50.7663 3606.82
50.8723 3385.29
50.9783 3030.16
51.0843 2627.58
51.1903 2533.11
51.2963 2539.4
51.4023 2654.47
51.5083 2827.69
51.6143 3253.61
51.7203 3976.6
51.8263 5538.46
51.9323 8248.5
52.0383 12306.1
52.1443 14740.2
52.2503 13089.9
52.3563 8941.4
52.4623 5521.3
52.5683 3721.61
52.6743 2984.98
52.7803 2609.79
52.8863 2400.19
52.9923 2204.24
53.0983 2041.13
53.2043 2064.52
53.3103 1959.03
53.4163 1958.78
53.5223 1900.14
53.6283 1927.77
53.7343 1907.42
53.8403 1933.01
53.9463 1825.32
54.0523 1800.26
54.1583 1786.19
54.2643 1815.54
54.3703 1824.58
54.4763 1871.14
54.5823 1763.61
54.6883 1790.27
54.7943 1762.65
54.9003 1736.07
55.0063 1827.3
55.1123 1782.15
55.2183 1760.96
55.3243 1681.76
55.4303 1754.75
55.5363 1790.25
55.6423 1779.81
55.7483 1810.68
55.8543 1748.34
55.9603 1702.74
56.0663 1686.21
56.1723 1793.59
56.2783 1726
56.3843 1725.02
56.4903 1688.19
56.5963 1660.65
56.7023 1732.48
56.8083 1744.28
56.9143 1749
57.0203 1796.74
57.1263 1703.48
57.2323 1768.67
57.3383 1786.24
57.4443 1774.15
57.5503 1738.01
57.6563 1774.72
57.7623 1762.16
57.8683 1779.74
57.9743 1742.45
58.0803 1782.44
58.1863 1769.08
58.2923 1861.76
58.3983 1778.71
58.5043 1864.67
58.6103 1865.43
58.7163 1960.18
58.8223 1996.94
58.9283 2033.7
59.0343 2140.17
59.1403 2260.95
59.2463 2198.75
59.3523 2185.8
59.4583 2062.15
59.5643 1909.64
59.6703 1844.12
59.7763 1820.29
59.8823 1788.06
59.9883 1830.23
60.0943 1729.94
60.2003 1724.23
60.3063 1696.32
60.4123 1682.23
60.5183 1682.41
60.6243 1638.16
60.7303 1682.17
60.8363 1697.36
60.9423 1715.61
61.0483 1707.16
61.1543 1730.07
61.2603 1680.98
61.3663 1701.44
61.4723 1706.1
61.5783 1661.65
61.6843 1687.18
61.7903 1661.65
61.8963 1776.22
62.0023 1693.27
62.1083 1782.43
62.2143 1716.33
62.3203 1698.05
62.4263 1727.65
62.5323 1720
62.6383 1738.01
62.7443 1772.83
62.8503 1736.62
62.9563 1771.9
63.0623 1750.1
63.1683 1713.49
63.2743 1704.56
63.3803 1731.43
63.4863 1730.5
63.5923 1730.31
63.6983 1749.14
63.8043 1734.7
63.9103 1772.21
64.0163 1699.99
64.1223 1701.13
64.2283 1758.66
64.3343 1733.66
64.4403 1724.05
64.5463 1800.52
64.6523 1719.37
64.7583 1753.62
64.8643 1779.58
64.9703 1723.35
65.0763 1728.76
65.1823 1698.09
65.2883 1741.35
65.3943 1720.11
65.5003 1745.67
65.6063 1744
65.7123 1686.06
65.8183 1739.65
65.9243 1704.14
66.0303 1688.72
66.1363 1721.5
66.2423 1689.15
66.3483 1701.35
66.4543 1667.1
66.5603 1683.37
66.6663 1783.48
66.7723 1739.5
66.8783 1718.29
66.9843 1613.74
67.0903 1679.67
67.1963 1752.29
67.3023 1739.75
67.4083 1762.35
67.5143 1769.77
67.6203 1646.96
67.7263 1711.28
67.8323 1739.81
67.9383 1708.47
68.0443 1774.91
68.1503 1701.23
68.2563 1723.38
68.3623 1707.2
68.4683 1725.69
68.5743 1724.63
68.6803 1756.8
68.7863 1779.25
68.8923 1748.08
68.9983 1730.6
69.1043 1715.18
69.2103 1756.56
69.3163 1743.16
69.4223 1772.48
69.5283 1727.3
69.6343 1726.72
69.7403 1695.27
69.8463 1643.82
69.9523 1739.54
70.0583 1722.3
70.1643 1715.25
70.2703 1754.26
70.3763 1654.03
70.4823 1745.74
70.5883 1735.87
70.6943 1640.85
70.8003 1656.42
70.9063 1677.92
71.0123 1716.86
71.1183 1707.06
71.2243 1741.24
71.3303 1741.44
71.4363 1718.4
71.5423 1721.19
71.6483 1714.99
71.7543 1655.25
71.8603 1686.1
71.9663 1613.14
72.0723 1704.11
72.1783 1696.79
72.2843 1638.19
72.3903 1630.7
72.4963 1664.5
72.6023 1589.27
72.7083 1655.3
72.8143 1662.01
72.9203 1626.99
73.0263 1622.9
73.1323 1626.49
73.2383 1666.47
73.3443 1653.74
73.4503 1634.63
73.5563 1598.74
73.6623 1657.38
73.7683 1588.34
73.8743 1663.5
73.9803 1633.86
74.0863 1637.72
74.1923 1635.19
74.2983 1670.5
74.4043 1625.3
74.5103 1639.63
74.6163 1716.53
74.7223 1714.62
74.8283 1725.31
74.9343 1665.85
75.0403 1660.6
75.1463 1675.13
75.2523 1717.51
75.3583 1654.77
75.4643 1722.23
75.5703 1751.46
75.6763 1730.45
75.7823 1838.38
75.8883 1870.28
75.9943 1960.18
76.1003 1996.61
76.2063 2066.46
76.3123 2230.34
76.4183 2351.12
76.5243 2467.53
76.6303 2635.79
76.7363 2680.75
76.8423 2753.18
76.9483 2719.21
77.0543 2675.81
77.1603 2625.26
77.2663 2478.19
77.3723 2410.07
77.4783 2231.4
77.5843 2043.7
77.6903 1843.77
77.7963 1849.26
77.9023 1716.84
78.0083 1690.88
78.1143 1700.55
78.2203 1707.99
78.3263 1645.1
78.4323 1732.48
78.5383 1685.23
78.6443 1651.79
78.7503 1671.38
78.8563 1661.65
78.9623 1623.51
79.0683 1632.88
79.1743 1630.66
79.2803 1660.56
79.3863 1597.17
79.4923 1683.46
79.5983 1657.38
79.7043 1667.96
79.8103 1697.75
79.9163 1709.04
80.0223 1718.87
80.1283 1682.66
80.2343 1634.55
80.3403 1682.41
80.4463 1692.07
80.5523 1648.38
80.6583 1646.03
80.7643 1642.34
80.8703 1686.86
80.9763 1652.07
81.0823 1623.12
81.1883 1661.63
81.2943 1624.89
81.4003 1681.78
81.5063 1669.27
81.6123 1691.7
81.7183 1646.95
81.8243 1648.47
81.9303 1671.74
82.0363 1690.7
82.1423 1675.91
82.2483 1736.03
82.3543 1675.68
82.4603 1709.5
82.5663 1684.26
82.6723 1672.72
82.7783 1651.56
82.8843 1695.44
82.9903 1658.88
83.0963 1700.06
83.2023 1689.82
83.3083 1653.23
83.4143 1703.97
83.5203 1662.63
83.6263 1643.6
83.7323 1679.04
83.8383 1720.51
83.9443 1749.92
84.0503 1762.33
84.1563 1709.66
84.2623 1650.73
84.3683 1691.39
84.4743 1709.39
84.5803 1762.33
84.6863 1685.72
84.7923 1731.12
84.8983 1693.37
85.0043 1720.66
85.1103 1698.82
85.2163 1737.12
85.3223 1678.15
85.4283 1693.76
85.5343 1681.01
85.6403 1708.07
85.7463 1711.58
85.8523 1716.35
85.9583 1727.37
86.0643 1745.59
86.1703 1691.71
86.2763 1779.21
86.3823 1731.86
86.4883 1745.31
86.5943 1711.1
86.7003 1684.77
86.8063 1705.86
86.9123 1649.27
87.0183 1697.48
87.1243 1747.26
87.2303 1739.19
87.3363 1685.63
87.4423 1753.28
87.5483 1741.71
87.6543 1753.21
87.7603 1742.58
87.8663 1733.83
87.9723 1764.34
88.0783 1800.17
88.1843 1834.33
88.2903 1846.86
88.3963 1902.35
88.5023 1950.82
88.6083 1891.77
88.7143 2021.01
88.8203 1955.62
88.9263 1968.31
89.0323 1957.65
89.1383 1894.55
89.2443 1951.55
89.3503 1851.27
89.4563 1739.09
89.5623 1798.73
89.6683 1743.33
89.7743 1737.98
89.8803 1702.01
89.9863 1661.01
90.0923 1736.35
90.1983 1679.38
90.3043 1702.25
90.4103 1675.5
90.5163 1744.22
90.6223 1656.25
90.7283 1713.13
90.8343 1693.59
90.9403 1728.43
91.0463 1680.42
91.1523 1744.78
91.2583 1728.64
91.3643 1719.4
91.4703 1686.52
91.5763 1720.12
91.6823 1717.09
91.7883 1680.32
91.8943 1774.01
92.0003 1702.76
92.1063 1747.81
92.2123 1662.25
92.3183 1631.54
92.4243 1713.67
92.5303 1698.34
92.6363 1747.7
92.7423 1679.5
92.8483 1716.21
92.9543 1738.63
93.0603 1738.2
93.1663 1748.81
93.2723 1689.58
93.3783 1700.3
93.4843 1699.92
93.5903 1708.49
93.6963 1701
93.8023 1731.47
93.9083 1674.23
94.0143 1711.44
94.1203 1678.91
94.2263 1706.48
94.3323 1698.89
94.4383 1713.86
94.5443 1734.76
94.6503 1678.29
94.7563 1727.37
94.8623 1651.48
94.9683 1684.07
95.0743 1705.24
95.1803 1715.25
95.2863 1659.42
95.3923 1754.49
95.4983 1707.32
95.6043 1729.81
95.7103 1760.9
95.8163 1747.17
95.9223 1721.82
96.0283 1719.48
96.1343 1707.22
96.2403 1743.77
96.3463 1735.82
96.4523 1787.89
96.5583 1708.94
96.6643 1805.07
96.7703 1780.84
96.8763 1763.26
96.9823 1740.92
97.0883 1805.01
97.1943 1735.1
97.3003 1772.58
97.4063 1811.96
97.5123 1758.21
97.6183 1781.55
97.7243 1846.3
97.8303 1822.11
97.9363 1848.03
98.0423 1908.7
98.1483 2033.42
98.2543 2041.65
98.3603 2265.14
98.4663 2359.04
98.5723 2574.29
98.6783 2914.17
98.7843 3251.02
98.8903 3679.71
98.9963 4030.28
99.1023 4298.96
99.2083 4495.07
99.3143 4454.01
99.4203 4124.93
99.5263 3665.37
99.6323 3137.7
99.7383 2818.69
99.8443 2529.74
99.9503 2181.59
100.056 2066.61
100.162 1999.02
100.268 1988.03
100.374 1944.75
100.48 1805.94
100.586 1822.72
100.692 1830.82
100.798 1844.62
100.904 1750.53
101.01 1779.4
101.116 1797.37
101.222 1807.61
101.328 1837.77
101.434 1760.93
101.54 1778.74
101.646 1781.06
101.752 1828.11
101.858 1787.71
101.964 1859.61
102.07 1751.01
102.176 1773.01
102.282 1799.92
102.388 1818.41
102.494 1736.68
102.6 1793.96
102.706 1794.96
102.812 1751.33
102.918 1755.11
103.024 1800.82
103.13 1789.91
103.236 1792.36
103.342 1848.35
103.448 1796.39
103.554 1814.49
103.66 1792.28
103.766 1742.09
103.872 1810.22
103.978 1829.08
104.084 1790.09
104.19 1810.24
104.296 1738.92
104.402 1828.58
104.508 1798.03
104.614 1852.56
104.72 1821.95
104.826 1860.78
104.932 1817.76
105.038 1783.67
105.144 1831.1
105.25 1840.78
105.356 1803.59
105.462 1829.62
105.568 1813.37
105.674 1817.54
105.78 1875.76
105.886 1766.71
105.992 1836.07
106.098 1754.89
106.204 1770.14
106.31 1793.87
106.416 1830.7
106.522 1776.45
106.628 1798.33
106.734 1782.51
106.84 1796.01
106.946 1833.67
107.052 1789.3
107.158 1787.99
107.264 1757.24
107.37 1876.44
107.476 1753.65
107.582 1756.89
107.688 1779.45
107.794 1776.42
107.9 1831.37
108.006 1776.22
108.112 1796.89
108.218 1733.87
108.324 1823.58
108.43 1762.76
108.536 1781.07
108.642 1762.44
108.748 1825.6
108.854 1794.89
108.96 1784.08
109.066 1782.06
109.172 1791.29
109.278 1803.37
109.384 1879.06
109.49 1876.23
109.596 1857.45
109.702 1935.77
109.808 1877.32
109.914 1891.79
110.02 1964.29
110.126 1908
110.232 1927.77
110.338 1995.57
110.444 1940.22
110.55 1980.58
110.656 1912.59
110.762 1848.35
110.868 1870.16
110.974 1824.35
111.08 1841.14
111.186 1822.14
111.292 1784.88
111.398 1760.54
111.504 1725.01
111.61 1768.38
111.716 1713.69
111.822 1791.1
111.928 1691.39
112.034 1683.92
112.14 1700.45
112.246 1688.36
112.352 1709.8
112.458 1706.1
112.564 1724.06
112.67 1783.1
112.776 1657.23
112.882 1730.14
112.988 1610.69
113.094 1683.36
113.2 1720.55
113.306 1720.04
113.412 1672.95
113.518 1650.69
113.624 1745.49
113.73 1746.53
113.836 1691.09
113.942 1739.72
114.048 1732.88
114.154 1631.61
114.26 1723.66
114.366 1672.49
114.472 1677.02
114.578 1672.48
114.684 1695.52
114.79 1701.78
114.896 1703.2
115.002 1635.81
115.108 1658.51
115.214 1623.48
115.32 1680.88
115.426 1678.32
115.532 1650.99
115.638 1697.01
115.744 1685.34
115.85 1690.98
115.956 1690.14
116.062 1626.69
116.168 1662.2
116.274 1717.99
116.38 1643.21
116.486 1766.19
116.592 1687.14
116.698 1661.97
116.804 1758
116.91 1653.63
117.016 1640.38
117.122 1684.97
117.228 1793.55
117.334 1708.22
117.44 1682.05
117.546 1704.07
117.652 1744.27
117.758 1760.29
117.864 1678.28
117.97 1660.11
118.076 1744.59
118.182 1661.74
118.288 1743.43
118.394 1692.09
118.5 1742.37
118.606 1711.38
118.712 1677.88
118.818 1650.24
118.924 1746.37
119.03 1711.17
119.136 1751.11
119.242 1702.11
119.348 1705.58
119.454 1751.62
119.56 1660.32
119.666 1677.71
119.772 1769.26
119.878 1666.23
119.931 1696.69

           SR400
20.0793 1303.33
20.1853 1367.64
20.2913 1337.19
20.3973 1278.49
20.5033 1366.85
20.6093 1350.71
20.7153 1318
20.8213 1339.39
20.9273 1342.2
21.0333 1335.88
21.1393 1302.05
21.2453 1313.85
21.3513 1318.98
21.4573 1333.16
21.5633 1337.04
21.6693 1344.75
21.7753 1210.88
21.8813 1315.2
21.9873 1296.7
22.0933 1259.76
22.1993 1265.64
22.3053 1272.8
22.4113 1251.98
22.5173 1323.25
22.6233 1333.46
22.7293 1275.95
22.8353 1285.89
22.9413 1291.87
23.0473 1262.63
23.1533 1275.39
23.2593 1248.13
23.3653 1195.33
23.4713 1262.15
23.5773 1205.17
23.6833 1237.43
23.7893 1234.51
23.8953 1239.27
24.0013 1226.45
24.1073 1204.27
24.2133 1243.33
24.3193 1230.16
24.4253 1178.4
24.5313 1209.86
24.6373 1241.32
24.7433 1210.81
24.8493 1188.14
24.9553 1183.01
25.0613 1219.14
25.1673 1199.27
25.2733 1212.52
25.3793 1242.82
25.4853 1162.3
25.5913 1186.75
25.6973 1190.33
25.8033 1226.78
25.9093 1164.92
26.0153 1231.28
26.1213 1151.95
26.2273 1169.1
26.3333 1175.71
26.4393 1117.42
26.5453 1173.79
26.6513 1173.69
26.7573 1152.59
26.8633 1159.42
26.9693 1149.2
27.0753 1106.04
27.1813 1144.24
27.2873 1134.97
27.3933 1142.74
27.4993 1114.01
27.6053 1118.88
27.7113 1191.18
27.8173 1180.2
27.9233 1134.22
28.0293 1225.91
28.1353 1156.92
28.2413 1132.78
28.3473 1146.17
28.4533 1134.16
28.5593 1175.78
28.6653 1135.44
28.7713 1156.49
28.8773 1133.51
28.9833 1110.73
29.0893 1176.05
29.1953 1151.43
29.3013 1164.68
29.4073 1179.33
29.5133 1147.64
29.6193 1146.12
29.7253 1131.61
29.8313 1137.45
29.9373 1123.3
30.0433 1198.42
30.1493 1168.82
30.2553 1134.63
30.3613 1131.35
30.4673 1201.73
30.5733 1120.18
30.6793 1127.89
30.7853 1194.18
30.8913 1220.36
30.9973 1149.59
31.1033 1214.29
31.2093 1209
31.3153 1228.73
31.4213 1202.45
31.5273 1183
31.6333 1169.98
31.7393 1264.51
31.8453 1200.7
31.9513 1200.05
32.0573 1198.45
32.1633 1214.32
32.2693 1208.07
32.3753 1225.12
32.4813 1181
32.5873 1230.96
32.6933 1199.32
32.7993 1232.8
32.9053 1197.57
33.0113 1210.4
33.1173 1286.79
33.2233 1311.84
33.3293 1267.33
33.4353 1259.58
33.5413 1293.41
33.6473 1240.95
33.7533 1275.51
33.8593 1285.09
33.9653 1228.09
34.0713 1276.14
34.1773 1263.02
34.2833 1252.72
34.3893 1325.12
34.4953 1226.71
34.6013 1287.28
34.7073 1253.93
34.8133 1308.06
34.9193 1281.55
35.0253 1257.4
35.1313 1271.35
35.2373 1251.39
35.3433 1263.45
35.4493 1243.21
35.5553 1247.78
35.6613 1283.77
35.7673 1267.43
35.8733 1277.83
35.9793 1233.57
36.0853 1266.33
36.1913 1282.9
36.2973 1290.2
36.4033 1204.98
36.5093 1240.41
36.6153 1270.1
36.7213 1269.51
36.8273 1272.47
36.9333 1232.07
37.0393 1238.18
37.1453 1196.14
37.2513 1228.4
37.3573 1270.1
37.4633 1193.03
37.5693 1181.85
37.6753 1282.66
37.7813 1213.41
37.8873 1289.6
37.9933 1272.28
38.0993 1239.39
38.2053 1313.91
38.3113 1248.09
38.4173 1347.56
38.5233 1215.94
38.6293 1273.82
38.7353 1277.62
38.8413 1220.72
38.9473 1265.56
39.0533 1233
39.1593 1248.09
39.2653 1257.82
39.3713 1279.22
39.4773 1218.31
39.5833 1232.24
39.6893 1273.09
39.7953 1243.02
39.9013 1252.4
40.0073 1239.18
40.1133 1228.19
40.2193 1223.22
40.3253 1225.02
40.4313 1214.79
40.5373 1236.81
40.6433 1300.45
40.7493 1236.32
40.8553 1265.76
40.9613 1308.21
41.0673 1256
41.1733 1274.6
41.2793 1260.26
41.3853 1269.82
41.4913 1278.77
41.5973 1316.19
41.7033 1260.53
41.8093 1287.09
41.9153 1313.01
42.0213 1309.63
42.1273 1273.09
42.2333 1246.94
42.3393 1240.21
42.4453 1284.13
42.5513 1253.26
42.6573 1296.04
42.7633 1300.09
42.8693 1336.72
42.9753 1253.67
43.0813 1245.28
43.1873 1268.7
43.2933 1308.13
43.3993 1292.84
43.5053 1212.44
43.6113 1212.54
43.7173 1337.21
43.8233 1265.11
43.9293 1282.3
44.0353 1300.49
44.1413 1300.19
44.2473 1325.75
44.3533 1304.01
44.4593 1308.23
44.5653 1369.05
44.6713 1311.53
44.7773 1288.94
44.8833 1321.68
44.9893 1310.19
45.0953 1305.89
45.2013 1306.57
45.3073 1313.93
45.4133 1309.42
45.5193 1317.13
45.6253 1319.01
45.7313 1362.1
45.8373 1281.35
45.9433 1380.38
46.0493 1235.23
46.1553 1316.14
46.2613 1340.19
46.3673 1360.75
46.4733 1362.5
46.5793 1363.8
46.6853 1396.63
46.7913 1422.91
46.8973 1424.09
47.0033 1360.06
47.1093 1342.49
47.2153 1402.85
47.3213 1369.23
47.4273 1378.15
47.5333 1338.63
47.6393 1376.25
47.7453 1394.82
47.8513 1361.65
47.9573 1402.59
48.0633 1379.32
48.1693 1375.81
48.2753 1372.06
48.3813 1379.45
48.4873 1423.42
48.5933 1381.49
48.6993 1433.92
48.8053 1334.16
48.9113 1406.32
49.0173 1445.36
49.1233 1400.07
49.2293 1415.82
49.3353 1417.68
49.4413 1490.99
49.5473 1461
49.6533 1468.14
49.7593 1523.79
49.8653 1531.21
49.9713 1531.68
50.0773 1483.95
50.1833 1608.74
50.2893 1682.11
50.3953 1758.32
50.5013 1898.85
50.6073 1815.27
50.7133 1866.8
50.8193 1892.85
50.9253 1831.1
51.0313 1954.02
51.1373 2110.33
51.2433 2303.44
51.3493 2630.21
51.4553 3090.08
51.5613 4140.74
51.6673 5929.6
51.7733 9385.33
51.8793 14317.6
51.9853 18047
52.0913 17755.9
52.1973 13537.4
52.3033 8506.11
52.4093 5125.64
52.5153 3630.07
52.6213 2839.96
52.7273 2395.41
52.8333 2181.01
52.9393 2007.34
53.0453 1893.42
53.1513 1781.44
53.2573 1736.8
53.3633 1699.1
53.4693 1695.95
53.5753 1608.81
53.6813 1553.19
53.7873 1564.4
53.8933 1511.51
53.9993 1491.26
54.1053 1521.58
54.2113 1470.68
54.3173 1497.24
54.4233 1532.8
54.5293 1437.19
54.6353 1532.86
54.7413 1469.1
54.8473 1456.26
54.9533 1451.26
55.0593 1424.65
55.1653 1495.63
55.2713 1413.54
55.3773 1377.98
55.4833 1432.72
55.5893 1477.81
55.6953 1376.04
55.8013 1451.71
55.9073 1430.9
56.0133 1442.66
56.1193 1396.75
56.2253 1409.24
56.3313 1442.68
56.4373 1434.58
56.5433 1392.19
56.6493 1397.71
56.7553 1417.25
56.8613 1424.98
56.9673 1376.12
57.0733 1461.85
57.1793 1406.7
57.2853 1399.87
57.3913 1430.95
57.4973 1405.4
57.6033 1417.66
57.7093 1405.59
57.8153 1407.01
57.9213 1408.16
58.0273 1395.28
58.1333 1403.13
58.2393 1358.71
58.3453 1381.41
58.4513 1465.37
58.5573 1393.3
58.6633 1364.91
58.7693 1491.18
58.8753 1399.84
58.9813 1510.92
59.0873 1426.37
59.1933 1455.53
59.2993 1466.63
59.4053 1396.47
59.5113 1398.62
59.6173 1436.94
59.7233 1445.35
59.8293 1371.61
59.9353 1333.37
60.0413 1382.92
60.1473 1358.01
60.2533 1368.33
60.3593 1393.01
60.4653 1387.37
60.5713 1366.81
60.6773 1385.43
60.7833 1320.19
60.8893 1377.75
60.9953 1407.95
61.1013 1453.73
61.2073 1445
61.3133 1463.69
61.4193 1394.01
61.5253 1408.28
61.6313 1408.47
61.7373 1475.79
61.8433 1390.33
61.9493 1384.07
62.0553 1360.91
62.1613 1462.11
62.2673 1337.42
62.3733 1380.99
62.4793 1408.35
62.5853 1373.22
62.6913 1403.44
62.7973 1372.64
62.9033 1383.52
63.0093 1414.95
63.1153 1462.31
63.2213 1388.52
63.3273 1404.88
63.4333 1426.84
63.5393 1337.98
63.6453 1422.54
63.7513 1420.72
63.8573 1405.49
63.9633 1380.58
64.0693 1389.74
64.1753 1468.18
64.2813 1383.26
64.3873 1403.96
64.4933 1364.08
64.5993 1438.69
64.7053 1401.51
64.8113 1412.94
64.9173 1469.47
65.0233 1409.65
65.1293 1388.2
65.2353 1392.34
65.3413 1376.7
65.4473 1345.23
65.5533 1385.87
65.6593 1392.9
65.7653 1399.78
65.8713 1378.24
65.9773 1367.91
66.0833 1405.7
66.1893 1405.82
66.2953 1414.36
66.4013 1379.36
66.5073 1418.16
66.6133 1441.66
66.7193 1355.35
66.8253 1428.07
66.9313 1412.93
67.0373 1448.17
67.1433 1443.22
67.2493 1517.82
67.3553 1365.3
67.4613 1425.92
67.5673 1447.27
67.6733 1432.65
67.7793 1412.32
67.8853 1431.84
67.9913 1448.65
68.0973 1350.75
68.2033 1368.89
68.3093 1406.95
68.4153 1417.55
68.5213 1392.15
68.6273 1414.9
68.7333 1361.42
68.8393 1409.9
68.9453 1417.43
69.0513 1382.2
69.1573 1444.83
69.2633 1417.71
69.3693 1431.77
69.4753 1439.42
69.5813 1395.66
69.6873 1471.9
69.7933 1398.03
69.8993 1385.65
70.0053 1481.14
70.1113 1425.98
70.2173 1418.15
70.3233 1441.43
70.4293 1382.95
70.5353 1378.39
70.6413 1421.09
70.7473 1423.56
70.8533 1442.94
70.9593 1445.3
71.0653 1394.14
71.1713 1427.14
71.2773 1380.69
71.3833 1482.54
71.4893 1457.73
71.5953 1465.51
71.7013 1415.43
71.8073 1445.16
71.9133 1430.36
72.0193 1419.18
72.1253 1487.37
72.2313 1456.91
72.3373 1406.06
72.4433 1331.75
72.5493 1418.26
72.6553 1437.15
72.7613 1421.46
72.8673 1433.93
72.9733 1441.68
73.0793 1464.08
73.1853 1429.34
73.2913 1414.03
73.3973 1384.1
73.5033 1440.62
73.6093 1450.33
73.7153 1408.87
73.8213 1462.27
73.9273 1451.16
74.0333 1483.77
74.1393 1453.52
74.2453 1427.78
74.3513 1438.65
74.4573 1417.74
74.5633 1471.26
74.6693 1439
74.7753 1480.99
74.8813 1493.71
74.9873 1464.01
75.0933 1536.38
75.1993 1532.06
75.3053 1578.62
75.4113 1565.19
75.5173 1589.4
75.6233 1618.46
75.7293 1634.82
75.8353 1716.83
75.9413 1758.74
76.0473 1858.32
76.1533 1954.76
76.2593 1970.17
76.3653 2036.01
76.4713 2183.44
76.5773 2184.22
76.6833 2244.23
76.7893 2145.36
76.8953 2159.53
77.0013 2063.87
77.1073 1864.75
77.2133 1842.84
77.3193 1740.7
77.4253 1708.39
77.5313 1664.16
77.6373 1536.22
77.7433 1502.12
77.8493 1538.86
77.9553 1469.53
78.0613 1596.78
78.1673 1462.89
78.2733 1529.73
78.3793 1497.93
78.4853 1450.93
78.5913 1480.89
78.6973 1485.44
78.8033 1489.01
78.9093 1469.73
79.0153 1537.75
79.1213 1474.67
79.2273 1502.9
79.3333 1399.29
79.4393 1413.35
79.5453 1412.45
79.6513 1473.53
79.7573 1472.23
79.8633 1480.49
79.9693 1460.69
80.0753 1406.07
80.1813 1443.04
80.2873 1456.46
80.3933 1485.73
80.4993 1469.06
80.6053 1465.72
80.7113 1422.1
80.8173 1422.98
80.9233 1425.11
81.0293 1423.55
81.1353 1463.62
81.2413 1449.62
81.3473 1435.94
81.4533 1451.04
81.5593 1515.07
81.6653 1456.29
81.7713 1407.81
81.8773 1396.18
81.9833 1426.86
82.0893 1412.75
82.1953 1410.01
82.3013 1382.88
82.4073 1416.55
82.5133 1452.26
82.6193 1441.12
82.7253 1433.25
82.8313 1443.4
82.9373 1463.34
83.0433 1469.49
83.1493 1413.35
83.2553 1394.44
83.3613 1422.38
83.4673 1421.01
83.5733 1506.49
83.6793 1456.91
83.7853 1458.98
83.8913 1377.44
83.9973 1450.1
84.1033 1455.35
84.2093 1513.6
84.3153 1416.61
84.4213 1423.96
84.5273 1487.97
84.6333 1423.93
84.7393 1500.57
84.8453 1467.01
84.9513 1491.21
85.0573 1439.7
85.1633 1470.71
85.2693 1460.94
85.3753 1416.62
85.4813 1487.39
85.5873 1463.65
85.6933 1450.49
85.7993 1524.86
85.9053 1502.34
86.0113 1461.93
86.1173 1463.59
86.2233 1492.38
86.3293 1497.95
86.4353 1484.23
86.5413 1453.73
86.6473 1489.97
86.7533 1541.08
86.8593 1474.54
86.9653 1503.9
87.0713 1457.56
87.1773 1405.27
87.2833 1483.79
87.3893 1483.76
87.4953 1467.57
87.6013 1483.75
87.7073 1429.47
87.8133 1487.95
87.9193 1452.89
88.0253 1450.76
88.1313 1474.43
88.2373 1484.6
88.3433 1470.01
88.4493 1453.42
88.5553 1507.05
88.6613 1514.45
88.7673 1500.56
88.8733 1429.52
88.9793 1428.35
89.0853 1458.71
89.1913 1479.39
89.2973 1468.34
89.4033 1461.79
89.5093 1494.66
89.6153 1536.5
89.7213 1490.75
89.8273 1444.2
89.9333 1474.67
90.0393 1484.25
90.1453 1485.52
90.2513 1436.11
90.3573 1493.3
90.4633 1504.54
90.5693 1563.23
90.6753 1465.55
90.7813 1423.93
90.8873 1449.06
90.9933 1474.22
91.0993 1506.26
91.2053 1518.94
91.3113 1529.01
91.4173 1532.07
91.5233 1517.52
91.6293 1495.29
91.7353 1498.43
91.8413 1445.07
91.9473 1498.83
92.0533 1487.13
92.1593 1467.74
92.2653 1467.15
92.3713 1418.9
92.4773 1474.47
92.5833 1434.13
92.6893 1449.48
92.7953 1462.22
92.9013 1459.43
93.0073 1500.9
93.1133 1463.9
93.2193 1442.7
93.3253 1429.84
93.4313 1411.28
93.5373 1400.73
93.6433 1485.51
93.7493 1365.96
93.8553 1484.37
93.9613 1416.63
94.0673 1427.81
94.1733 1393.05
94.2793 1427.96
94.3853 1391.21
94.4913 1402.46
94.5973 1422.41
94.7033 1415.73
94.8093 1389.48
94.9153 1403.36
95.0213 1404.3
95.1273 1412.81
95.2333 1399.44
95.3393 1410.04
95.4453 1432.35
95.5513 1408.39
95.6573 1453.45
95.7633 1387.72
95.8693 1454.64
95.9753 1405.83
96.0813 1435.73
96.1873 1432.06
96.2933 1388.86
96.3993 1455.05
96.5053 1346.97
96.6113 1474.38
96.7173 1461.93
96.8233 1463.8
96.9293 1458.2
97.0353 1459.53
97.1413 1429.54
97.2473 1449.95
97.3533 1482.31
97.4593 1502.2
97.5653 1506.3
97.6713 1533.31
97.7773 1567.27
97.8833 1597.22
97.9893 1692.92
98.0953 1810.38
98.2013 1803.64
98.3073 2081.9
98.4133 2217.84
98.5193 2348.17
98.6253 2683.86
98.7313 2922.69
98.8373 3187.18
98.9433 3458.41
99.0493 3445.67
99.1553 3446.65
99.2613 3160.4
99.3673 2866.02
99.4733 2613.52
99.5793 2239.63
99.6853 2035.04
99.7913 1839.03
99.8973 1804.58
100.003 1675.43
100.109 1650.94
100.215 1642.99
100.321 1623.04
100.427 1594.48
100.533 1545.66
100.639 1529.4
100.745 1545.65
100.851 1553.05
100.957 1470.04
101.063 1505.71
101.169 1509.99
101.275 1517.36
101.381 1563.82
101.487 1484
101.593 1427.36
101.699 1501.16
101.805 1491.09
101.911 1525.85
102.017 1433.94
102.123 1522.03
102.229 1498.14
102.335 1519.78
102.441 1445.15
102.547 1510.65
102.653 1451.09
102.759 1493.55
102.865 1486.5
102.971 1530.01
103.077 1481.76
103.183 1478.12
103.289 1479.17
103.395 1443.67
103.501 1504.27
103.607 1453.6
103.713 1454.86
103.819 1499.06
103.925 1441.78
104.031 1501.03
104.137 1460.77
104.243 1475.14
104.349 1515.58
104.455 1495.67
104.561 1497.27
104.667 1503.52
104.773 1481.42
104.879 1470.51
104.985 1500.02
105.091 1513.44
105.197 1520.79
105.303 1507.08
105.409 1465.65
105.515 1594.63
105.621 1550.23
105.727 1501.14
105.833 1479.75
105.939 1481.58
106.045 1479.67
106.151 1485.38
106.257 1514.13
106.363 1512.52
106.469 1568.01
106.575 1454.55
106.681 1512.66
106.787 1534.5
106.893 1542.96
106.999 1469.48
107.105 1522.68
107.211 1509.01
107.317 1544.73
107.423 1447.92
107.529 1507.82
107.635 1511.66
107.741 1543
107.847 1469.58
107.953 1526.16
108.059 1529.55
108.165 1502.76
108.271 1500.01
108.377 1505.44
108.483 1485.93
108.589 1515.89
108.695 1523.96
108.801 1548.46
108.907 1516.23
109.013 1532.75
109.119 1586.36
109.225 1545.46
109.331 1520.1
109.437 1486.58
109.543 1522.22
109.649 1518.77
109.755 1510.28
109.861 1530.28
109.967 1509.84
110.073 1527.25
110.179 1518.58
110.285 1521.5
110.391 1462.38
110.497 1525.77
110.603 1534.41
110.709 1468.4
110.815 1482.89
110.921 1494.7
111.027 1509.01
111.133 1517.71
111.239 1490.22
111.345 1497.59
111.451 1515.24
111.557 1448.28
111.663 1473.54
111.769 1499.44
111.875 1537.66
111.981 1497.95
112.087 1514.56
112.193 1475.4
112.299 1480.21
112.405 1453.74
112.511 1512.02
112.617 1462.01
112.723 1500.89
112.829 1540.93
112.935 1470.96
113.041 1515.04
113.147 1485.25
113.253 1526.68
113.359 1474.25
113.465 1473.19
113.571 1533.64
113.677 1501.68
113.783 1487.3
113.889 1489.27
113.995 1551.08
114.101 1472.61
114.207 1492.98
114.313 1441.24
114.419 1523.75
114.525 1489.89
114.631 1521.78
114.737 1467.73
114.843 1493.73
114.949 1515.66
115.055 1452.31
115.161 1484.72
115.267 1530.02
115.373 1482.13
115.479 1513.96
115.585 1505.75
115.691 1475.44
115.797 1503.72
115.903 1503.37
116.009 1522.48
116.115 1475.59
116.221 1514.72
116.327 1509.46
116.433 1481.92
116.539 1531.75
116.645 1452.64
116.751 1513.01
116.857 1461.38
116.963 1528.11
117.069 1523.37
117.175 1512.89
117.281 1507.24
117.387 1520.31
117.493 1548.8
117.599 1534.37
117.705 1462.56
117.811 1516.1
117.917 1478.31
118.023 1570.06
118.129 1575.97
118.235 1563.12
118.341 1552.37
118.447 1589.34
118.553 1541.56
118.659 1544.5
118.765 1492.3
118.871 1565.91
118.977 1580.31
119.083 1572.9
119.189 1544.05
119.295 1524.02
119.401 1553.09
119.507 1560.11
119.613 1573.77
119.719 1589.41
119.825 1593.58
119.931 1514.65

        SR450
20.0263 1374.01
20.1323 1305.76
20.2383 1378.16
20.3443 1338.27
20.4503 1356.08
20.5563 1361.92
20.6623 1364.88
20.7683 1337.18
20.8743 1383.97
20.9803 1354.4
21.0863 1269.12
21.1923 1322.16
21.2983 1307.57
21.4043 1376.49
21.5103 1332.26
21.6163 1323.25
21.7223 1333.08
21.8283 1334.74
21.9343 1310.6
22.0403 1327.53
22.1463 1322.14
22.2523 1310.02
22.3583 1273.78
22.4643 1306.85
22.5703 1318.08
22.6763 1279.02
22.7823 1284.12
22.8883 1283.71
22.9943 1303.01
23.1003 1315.37
23.2063 1325.21
23.3123 1302.36
23.4183 1309.01
23.5243 1287.96
23.6303 1308.32
23.7363 1260.86
23.8423 1259.71
23.9483 1279.94
24.0543 1298.99
24.1603 1309.84
24.2663 1263.71
24.3723 1286.67
24.4783 1256.29
24.5843 1253.82
24.6903 1278.99
24.7963 1281.09
24.9023 1234.46
25.0083 1267.43
25.1143 1277.75
25.2203 1297.36
25.3263 1278.89
25.4323 1289.98
25.5383 1285.03
25.6443 1326.14
25.7503 1339.07
25.8563 1270.89
25.9623 1294.71
26.0683 1272.43
26.1743 1229.45
26.2803 1300.03
26.3863 1274.13
26.4923 1283
26.5983 1331.7
26.7043 1252.81
26.8103 1268.29
26.9163 1313.18
27.0223 1247.11
27.1283 1263.3
27.2343 1287.33
27.3403 1275.61
27.4463 1200.09
27.5523 1272.4
27.6583 1314.88
27.7643 1268.24
27.8703 1293.76
27.9763 1246.3
28.0823 1259.18
28.1883 1295.03
28.2943 1261.47
28.4003 1311.84
28.5063 1307.19
28.6123 1248.18
28.7183 1306.36
28.8243 1316.36
28.9303 1306.3
29.0363 1277.26
29.1423 1276.33
29.2483 1250.06
29.3543 1264.33
29.4603 1273.85
29.5663 1301.73
29.6723 1291.09
29.7783 1235.96
29.8843 1278.58
29.9903 1264.01
30.0963 1277.26
30.2023 1212.45
30.3083 1274.33
30.4143 1314.61
30.5203 1244.82
30.6263 1290.66
30.7323 1146.72
30.8383 1218.78
30.9443 1296.43
31.0503 1245.35
31.1563 1257.41
31.2623 1285.9
31.3683 1292.08
31.4743 1227.71
31.5803 1240.9
31.6863 1193.58
31.7923 1272.21
31.8983 1269.36
32.0043 1262.4
32.1103 1204.61
32.2163 1208.65
32.3223 1184.27
32.4283 1230.96
32.5343 1299.93
32.6403 1218.05
32.7463 1233.41
32.8523 1258.77
32.9583 1188.14
33.0643 1211.06
33.1703 1236.31
33.2763 1218.64
33.3823 1246.66
33.4883 1237.1
33.5943 1162.97
33.7003 1183
33.8063 1144.9
33.9123 1200.01
34.0183 1152.92
34.1243 1200.47
34.2303 1203.58
34.3363 1206.86
34.4423 1186.13
34.5483 1178.51
34.6543 1215.59
34.7603 1169.5
34.8663 1188.13
34.9723 1181.44
35.0783 1204.32
35.1843 1151.74
35.2903 1147.04
35.3963 1140.56
35.5023 1193.54
35.6083 1177.59
35.7143 1215.73
35.8203 1174.93
35.9263 1164.71
36.0323 1184.97
36.1383 1184.51
36.2443 1208.3
36.3503 1178.97
36.4563 1167.86
36.5623 1174.18
36.6683 1235.53
36.7743 1188.43
36.8803 1266.29
36.9863 1227.17
37.0923 1182.92
37.1983 1291.77
37.3043 1272.6
37.4103 1198.23
37.5163 1250.17
37.6223 1225.79
37.7283 1192.32
37.8343 1225.82
37.9403 1266.07
38.0463 1240.31
38.1523 1237.9
38.2583 1201.01
38.3643 1213.58
38.4703 1212.08
38.5763 1249.42
38.6823 1173.32
38.7883 1256.04
38.8943 1261.78
39.0003 1218.88
39.1063 1241.55
39.2123 1236.9
39.3183 1228.29
39.4243 1246.57
39.5303 1285.87
39.6363 1295.52
39.7423 1271.65
39.8483 1268.06
39.9543 1316.14
40.0603 1315.92
40.1663 1286.27
40.2723 1312.65
40.3783 1328.63
40.4843 1295.96
40.5903 1324.7
40.6963 1309.87
40.8023 1318.76
40.9083 1301.53
41.0143 1345.85
41.1203 1377.17
41.2263 1312.89
41.3323 1350.38
41.4383 1337.11
41.5443 1364.61
41.6503 1388.95
41.7563 1322.59
41.8623 1370.82
41.9683 1374.19
42.0743 1404.05
42.1803 1349.56
42.2863 1358.87
42.3923 1354.78
42.4983 1364.51
42.6043 1358.05
42.7103 1449.81
42.8163 1382.39
42.9223 1450.5
43.0283 1373
43.1343 1435.21
43.2403 1324.11
43.3463 1308.86
43.4523 1370.06
43.5583 1367.09
43.6643 1441.74
43.7703 1429.33
43.8763 1392.11
43.9823 1417.34
44.0883 1433.68
44.1943 1466.06
44.3003 1427.73
44.4063 1367.8
44.5123 1398.24
44.6183 1416.86
44.7243 1404.2
44.8303 1436.78
44.9363 1404.27
45.0423 1398.01
45.1483 1442.76
45.2543 1399.13
45.3603 1416.94
45.4663 1387.63
45.5723 1427.17
45.6783 1417.27
45.7843 1416.98
45.8903 1411.14
45.9963 1439.67
46.1023 1484.27
46.2083 1399.63
46.3143 1395.37
46.4203 1440.14
46.5263 1395.01
46.6323 1482.16
46.7383 1455.97
46.8443 1529.35
46.9503 1510.44
47.0563 1506.41
47.1623 1515.22
47.2683 1461.42
47.3743 1478.54
47.4803 1512.99
47.5863 1487.08
47.6923 1552.16
47.7983 1494.01
47.9043 1426.15
48.0103 1490.98
48.1163 1510.36
48.2223 1517.14
48.3283 1512.7
48.4343 1521.45
48.5403 1513.07
48.6463 1476.83
48.7523 1555.38
48.8583 1582.17
48.9643 1526.38
49.0703 1575.96
49.1763 1610.45
49.2823 1597.39
49.3883 1543.88
49.4943 1611.42
49.6003 1641.53
49.7063 1630.77
49.8123 1626.1
49.9183 1563.11
50.0243 1693.92
50.1303 1797.73
50.2363 1797.09
50.3423 1913.5
50.4483 2148.12
50.5543 2416.49
50.6603 2599.48
50.7663 2921.02
50.8723 3010.11
50.9783 2747.23
51.0843 2347.42
51.1903 2244.45
51.2963 2285.13
51.4023 2400.4
51.5083 2583.17
51.6143 3007.43
51.7203 3787.95
51.8263 5029.34
51.9323 7341.58
52.0383 10248.8
52.1443 11493.2
52.2503 10039.6
52.3563 7011.01
52.4623 4534.87
52.5683 3098.01
52.6743 2604.8
52.7803 2305.57
52.8863 2113.78
52.9923 1976.37
53.0983 1854.48
53.2043 1819.58
53.3103 1806.28
53.4163 1695.74
53.5223 1773.56
53.6283 1703.98
53.7343 1696.42
53.8403 1611.56
53.9463 1667.89
54.0523 1696
54.1583 1647.99
54.2643 1596.67
54.3703 1658.75
54.4763 1682.48
54.5823 1603
54.6883 1617.57
54.7943 1605.56
54.9003 1624
55.0063 1658.89
55.1123 1663.28
55.2183 1661.96
55.3243 1705.42
55.4303 1610.9
55.5363 1615.96
55.6423 1647.13
55.7483 1702.12
55.8543 1621.74
55.9603 1692.1
56.0663 1658.61
56.1723 1635.74
56.2783 1633.96
56.3843 1681.53
56.4903 1657.81
56.5963 1677.64
56.7023 1664.2
56.8083 1661.87
56.9143 1677.51
57.0203 1629.02
57.1263 1616.3
57.2323 1671.63
57.3383 1687.31
57.4443 1678.07
57.5503 1696.57
57.6563 1732.63
57.7623 1704.23
57.8683 1692.66
57.9743 1695.52
58.0803 1727.58
58.1863 1751.4
58.2923 1792.03
58.3983 1732.97
58.5043 1753.85
58.6103 1818.42
58.7163 1877.11
58.8223 1911.64
58.9283 2008.64
59.0343 2124.85
59.1403 2160.78
59.2463 2248.97
59.3523 2135.02
59.4583 2140.47
59.5643 1989.09
59.6703 1915.6
59.7763 1844
59.8823 1808.69
59.9883 1740.28
60.0943 1792.59
60.2003 1748.28
60.3063 1704.86
60.4123 1673.88
60.5183 1797.96
60.6243 1792.52
60.7303 1795.98
60.8363 1763.21
60.9423 1728.16
61.0483 1676.47
61.1543 1726.24
61.2603 1742.26
61.3663 1782.97
61.4723 1767.88
61.5783 1674.28
61.6843 1755.84
61.7903 1736.14
61.8963 1691.98
62.0023 1786.43
62.1083 1712.19
62.2143 1796.99
62.3203 1772.81
62.4263 1774.82
62.5323 1778.83
62.6383 1743.84
62.7443 1756.27
62.8503 1768.39
62.9563 1798.85
63.0623 1824.38
63.1683 1744.87
63.2743 1775.97
63.3803 1787.06
63.4863 1728.66
63.5923 1771.15
63.6983 1744.43
63.8043 1776.95
63.9103 1736.33
64.0163 1770.58
64.1223 1823.87
64.2283 1805.34
64.3343 1758.28
64.4403 1728.62
64.5463 1786.39
64.6523 1802.29
64.7583 1747.5
64.8643 1776.18
64.9703 1725.16
65.0763 1784.01
65.1823 1677.12
65.2883 1704.6
65.3943 1748.15
65.5003 1703.18
65.6063 1824.86
65.7123 1716.79
65.8183 1801.51
65.9243 1800.9
66.0303 1784.95
66.1363 1852.47
66.2423 1710.15
66.3483 1687.29
66.4543 1833.73
66.5603 1779.03
66.6663 1775.58
66.7723 1748.92
66.8783 1728.67
66.9843 1752.22
67.0903 1770.89
67.1963 1683.23
67.3023 1789.56
67.4083 1816.63
67.5143 1754.09
67.6203 1783.42
67.7263 1761.86
67.8323 1719.32
67.9383 1833.32
68.0443 1712.78
68.1503 1801.76
68.2563 1744.48
68.3623 1764.65
68.4683 1751.65
68.5743 1729.69
68.6803 1729.87
68.7863 1754.71
68.8923 1754.97
68.9983 1767.01
69.1043 1700.45
69.2103 1743.46
69.3163 1781.08
69.4223 1741.63
69.5283 1719.18
69.6343 1763.27
69.7403 1726.98
69.8463 1732.92
69.9523 1709.33
70.0583 1771.58
70.1643 1742.36
70.2703 1710.32
70.3763 1794.49
70.4823 1683.33
70.5883 1715.38
70.6943 1752.49
70.8003 1724.09
70.9063 1710.27
71.0123 1687.1
71.1183 1745.17
71.2243 1729.9
71.3303 1744.63
71.4363 1748.14
71.5423 1684.58
71.6483 1806.87
71.7543 1749.62
71.8603 1720.98
71.9663 1726.88
72.0723 1792.97
72.1783 1745.35
72.2843 1800.9
72.3903 1695.6
72.4963 1819.26
72.6023 1782.33
72.7083 1790.09
72.8143 1837.6
72.9203 1758.03
73.0263 1862.25
73.1323 1804.19
73.2383 1771.08
73.3443 1828.25
73.4503 1844.53
73.5563 1851.95
73.6623 1859.88
73.7683 1855.18
73.8743 1829.09
73.9803 1795.91
74.0863 1922.31
74.1923 1838.84
74.2983 1805.51
74.4043 1847.4
74.5103 1794.67
74.6163 1864.19
74.7223 1829.55
74.8283 1840.84
74.9343 1816.56
75.0403 1885.56
75.1463 1792.05
75.2523 1881.45
75.3583 1835.37
75.4643 1858.89
75.5703 1850.34
75.6763 1874.72
75.7823 1881.34
75.8883 1965.69
75.9943 1950.69
76.1003 2011.11
76.2063 2144.72
76.3123 2158.06
76.4183 2290.43
76.5243 2402.26
76.6303 2416.67
76.7363 2449.5
76.8423 2453.89
76.9483 2474.6
77.0543 2491.67
77.1603 2491
77.2663 2490.38
77.3723 2351.01
77.4783 2205.31
77.5843 2079.4
77.6903 1959.69
77.7963 1934.13
77.9023 1848.97
78.0083 1740.81
78.1143 1748.23
78.2203 1756.8
78.3263 1789.34
78.4323 1788.59
78.5383 1686.4
78.6443 1713.77
78.7503 1669.79
78.8563 1748.12
78.9623 1758.37
79.0683 1760.8
79.1743 1707.78
79.2803 1764.3
79.3863 1754.47
79.4923 1805.54
79.5983 1727.87
79.7043 1718.22
79.8103 1713.72
79.9163 1760.1
80.0223 1744.77
80.1283 1746.84
80.2343 1722.26
80.3403 1726.89
80.4463 1706.59
80.5523 1714.75
80.6583 1737.95
80.7643 1742.77
80.8703 1684.68
80.9763 1750.1
81.0823 1670.18
81.1883 1756.66
81.2943 1711.94
81.4003 1708.56
81.5063 1663.35
81.6123 1634.1
81.7183 1705.69
81.8243 1685.78
81.9303 1689.4
82.0363 1728.76
82.1423 1621.35
82.2483 1729.48
82.3543 1692.58
82.4603 1650.81
82.5663 1709.6
82.6723 1643.97
82.7783 1627.86
82.8843 1654.78
82.9903 1740.93
83.0963 1640.51
83.2023 1693.06
83.3083 1705.92
83.4143 1624.39
83.5203 1716.17
83.6263 1634.13
83.7323 1631.32
83.8383 1685.86
83.9443 1664.04
84.0503 1682.71
84.1563 1628.99
84.2623 1664.2
84.3683 1635.08
84.4743 1624.76
84.5803 1628.14
84.6863 1629.37
84.7923 1661.82
84.8983 1639.74
85.0043 1659.66
85.1103 1715.11
85.2163 1634.79
85.3223 1707.86
85.4283 1697.19
85.5343 1632.12
85.6403 1685.62
85.7463 1620.71
85.8523 1615.01
85.9583 1679.53
86.0643 1691.11
86.1703 1659.29
86.2763 1660.17
86.3823 1633.87
86.4883 1677.23
[...]
86.3823 1760.26
86.4883 1681.26
86.5943 1725.18
86.7003 1763.4
86.8063 1759.76
86.9123 1723.97
87.0183 1761.08
87.1243 1743.73
87.2303 1761.52
87.3363 1774.19
87.4423 1757.09
87.5483 1799.82
87.6543 1763.01
87.7603 1756.39
87.8663 1689.91
87.9723 1786.95
88.0783 1748.15
88.1843 1790.83
88.2903 1858.94
88.3963 1860.77
88.5023 1870.7
88.6083 1962.21
88.7143 1941.67
88.8203 1984.76
88.9263 1950.72
89.0323 2006.22
89.1383 1894.44
89.2443 1833.03
89.3503 1791.31
89.4563 1833.29
89.5623 1760.81
89.6683 1803.2
89.7743 1786.91
89.8803 1720.96
89.9863 1669.37
90.0923 1704.51
90.1983 1678.8
90.3043 1690.41
90.4103 1664.91
90.5163 1720.65
90.6223 1700.06
90.7283 1715.35
90.8343 1713.6
90.9403 1707.01
91.0463 1676.59
91.1523 1670.46
91.2583 1727.17
91.3643 1714.3
91.4703 1676.48
91.5763 1751.29
91.6823 1656.57
91.7883 1668.72
91.8943 1692.19
92.0003 1636.43
92.1063 1695.01
92.2123 1680.24
92.3183 1680.8
92.4243 1670.36
92.5303 1690.47
92.6363 1695.15
92.7423 1719.48
92.8483 1695.6
92.9543 1664.89
93.0603 1697
93.1663 1709.39
93.2723 1683.82
93.3783 1676.15
93.4843 1628.91
93.5903 1682.9
93.6963 1654.49
93.8023 1676.33
93.9083 1632.82
94.0143 1693.19
94.1203 1637.8
94.2263 1742.77
94.3323 1668.86
94.4383 1748.08
94.5443 1717.53
94.6503 1748.85
94.7563 1652.81
94.8623 1737.39
94.9683 1602.95
95.0743 1678.17
95.1803 1682.01
95.2863 1720.48
95.3923 1673.4
95.4983 1652.21
95.6043 1742.75
95.7103 1705.09
95.8163 1660.04
95.9223 1733.45
96.0283 1804.15
96.1343 1672.06
96.2403 1717.67
96.3463 1739.91
96.4523 1766.41
96.5583 1759.52
96.6643 1753.49
96.7703 1818.74
96.8763 1805.9
96.9823 1795.17
97.0883 1753.24
97.1943 1773.53
97.3003 1796.03
97.4063 1782.3
97.5123 1821.32
97.6183 1832.29
97.7243 1807.77
97.8303 1850.31
97.9363 1841.71
98.0423 1884.85
98.1483 1888.64
98.2543 1997.96
98.3603 2053.43
98.4663 2202.38
98.5723 2389.24
98.6783 2679.82
98.7843 3024.02
98.8903 3440.48
98.9963 3828.13
99.1023 4187.35
99.2083 4513.76
99.3143 4463.25
99.4203 4243.82
99.5263 3729.38
99.6323 3323.46
99.7383 2832.29
99.8443 2476.66
99.9503 2220.13
100.056 2071.23
100.162 1967.71
100.268 1889.45
100.374 1855.68
100.48 1787.02
100.586 1753.7
100.692 1827.06
100.798 1808.8
100.904 1774.41
101.01 1708.81
101.116 1754.57
101.222 1705.23
101.328 1690.13
101.434 1756.96
101.54 1748.56
101.646 1725.85
101.752 1736.31
101.858 1722.12
101.964 1712.75
102.07 1773.47
102.176 1721.93
102.282 1705.63
102.388 1757.65
102.494 1696.35
102.6 1658.31
102.706 1727.17
102.812 1735.73
102.918 1750.56
103.024 1718.87
103.13 1772.85
103.236 1699.6
103.342 1653
103.448 1764.15
103.554 1733.49
103.66 1697.44
103.766 1723.3
103.872 1712.62
103.978 1739.77
104.084 1696.98
104.19 1739.76
104.296 1746.77
104.402 1693.59
104.508 1755.63
104.614 1736.64
104.72 1693.19
104.826 1706.84
104.932 1710.9
105.038 1771.37
105.144 1699.85
105.25 1768.61
105.356 1717.46
105.462 1766.13
105.568 1705.34
105.674 1745.15
105.78 1740.29
105.886 1784.05
105.992 1780.43
106.098 1698.71
106.204 1786.22
106.31 1717.98
106.416 1708.77
106.522 1730.8
106.628 1772.72
106.734 1756.18
106.84 1754.08
106.946 1723.61
107.052 1773.67
107.158 1825.68
107.264 1748.46
107.37 1730.49
107.476 1718.04
107.582 1768.7
107.688 1765.58
107.794 1767.68
107.9 1767.5
108.006 1740.81
108.112 1691.31
108.218 1817.14
108.324 1787.45
108.43 1723.97
108.536 1731.37
108.642 1713.76
108.748 1815.44
108.854 1785.23
108.96 1733.89
109.066 1708.79
109.172 1759.6
109.278 1783.8
109.384 1800.96
109.49 1851.92
109.596 1840.92
109.702 1856.36
109.808 1846.59
109.914 1926.17
110.02 1876.91
110.126 1930.02
110.232 1910.18
110.338 1932.33
110.444 1953.8
110.55 1911.05
110.656 1898.44
110.762 1954.1
110.868 1872.02
110.974 1840.74
111.08 1811.91
111.186 1792.24
111.292 1757.87
111.398 1800.33
111.504 1762.66
111.61 1713.88
111.716 1696.95
111.822 1693.27
111.928 1754.68
112.034 1684.42
112.14 1711.29
112.246 1712.23
112.352 1749.2
112.458 1651.84
112.564 1705.88
112.67 1765.27
112.776 1757.32
112.882 1767.1
112.988 1708.76
113.094 1778.83
113.2 1783.24
113.306 1759.02
113.412 1737.94
113.518 1732.37
113.624 1697.22
113.73 1771.33
113.836 1756.11
113.942 1766.74
114.048 1763.49
114.154 1799.76
114.26 1717.54
114.366 1775.24
114.472 1795.28
114.578 1822.54
114.684 1733.99
114.79 1756.72
114.896 1824.09
115.002 1766.22
115.108 1742.59
115.214 1774.93
115.32 1822.12
115.426 1746.41
115.532 1771.99
115.638 1778.81
115.744 1763.63
115.85 1729.16
115.956 1767.15
116.062 1822.11
116.168 1741.01
116.274 1816.69
116.38 1796.51
116.486 1815.41
116.592 1805.13
116.698 1804.81
116.804 1830.72
116.91 1814.34
117.016 1805.55
117.122 1898.05
117.228 1888.14
117.334 1844.92
117.44 1851.38
117.546 1794.3
117.652 1800.63
117.758 1784.34
117.864 1797.72
117.97 1788.99
118.076 1856.8
118.182 1888.09
118.288 1833.53
118.394 1826.32
118.5 1831.03
118.606 1849.46
118.712 1788.22
118.818 1854.88
118.924 1839.17
119.03 1787.4
119.136 1816.61
119.242 1860.17
119.348 1711.14
119.454 1794.15
119.56 1820.49
119.666 1728.39
119.772 1822.77
119.878 1905.75
119.931 1852.56

          SA1100

20.0263 1417.01
20.1323 1462.67
20.2383 1460.19
20.3443 1394.45
20.4503 1434.16
20.5563 1406.76
20.6623 1477.11
20.7683 1443.37
20.8743 1542.32
20.9803 1434.25
21.0863 1430.85
21.1923 1466.89
21.2983 1436.29
21.4043 1468.63
21.5103 1394.63
21.6163 1423.78
21.7223 1430.5
21.8283 1426.23
21.9343 1390.99
22.0403 1433.06
22.1463 1404.15
22.2523 1420.19
22.3583 1392.45
22.4643 1393.69
22.5703 1422.21
22.6763 1379.79
22.7823 1339.24
22.8883 1399.98
22.9943 1436.59
23.1003 1380.15
23.2063 1378.56
23.3123 1456.31
23.4183 1393.26
23.5243 1381.6
23.6303 1394.88
23.7363 1424.12
23.8423 1395.42
23.9483 1409.93
24.0543 1381.62
24.1603 1347.05
24.2663 1388.66
24.3723 1350.36
24.4783 1406.88
24.5843 1438.13
24.6903 1433.4
24.7963 1450.22
24.9023 1382.46
25.0083 1390.87
25.1143 1429.67
25.2203 1485.95
25.3263 1431.92
25.4323 1366.32
25.5383 1371.44
25.6443 1390.62
25.7503 1403.43
25.8563 1399.15
25.9623 1368.6
26.0683 1380.86
26.1743 1365.26
26.2803 1351.13
26.3863 1350.49
26.4923 1431.54
26.5983 1360.53
26.7043 1357.22
26.8103 1356.49
26.9163 1406.04
27.0223 1417.95
27.1283 1441.59
27.2343 1375.37
27.3403 1361.04
27.4463 1392.79
27.5523 1368.87
27.6583 1350.11
27.7643 1428.03
27.8703 1391.84
27.9763 1395.19
28.0823 1384.49
28.1883 1406.49
28.2943 1362.04
28.4003 1368.68
28.5063 1374.17
28.6123 1352.92
28.7183 1381.12
28.8243 1317.39
28.9303 1395.94
29.0363 1297.46
29.1423 1345.63
29.2483 1358.35
29.3543 1373.67
29.4603 1389.62
29.5663 1336.91
29.6723 1346.45
29.7783 1338.58
29.8843 1384.32
29.9903 1383.44
30.0963 1298.5
30.2023 1410.04
30.3083 1336.07
30.4143 1316.31
30.5203 1389.63
30.6263 1412.01
30.7323 1410.5
30.8383 1354.66
30.9443 1323.03
31.0503 1351.84
31.1563 1393.43
31.2623 1464.83
31.3683 1390.42
31.4743 1360.89
31.5803 1342.65
31.6863 1336.36
31.7923 1359.36
31.8983 1400.62
32.0043 1450.88
32.1103 1382.57
32.2163 1361.74
32.3223 1376.74
32.4283 1351.57
32.5343 1356.71
32.6403 1438.26
32.7463 1432.96
32.8523 1479.99
32.9583 1398.66
33.0643 1370.11
33.1703 1435.15
33.2763 1430.35
33.3823 1408.26
33.4883 1401.32
33.5943 1355.28
33.7003 1437.7
33.8063 1402.26
33.9123 1443.56
34.0183 1383.8
34.1243 1448.8
34.2303 1438.23
34.3363 1405.46
34.4423 1479.25
34.5483 1379.47
34.6543 1442.88
34.7603 1485.55
34.8663 1395.02
34.9723 1436.02
35.0783 1450.87
35.1843 1468.48
35.2903 1474.77
35.3963 1447.06
35.5023 1404.75
35.6083 1453.06
35.7143 1405.87
35.8203 1422.95
35.9263 1402.51
36.0323 1455.93
36.1383 1422.92
36.2443 1430.05
36.3503 1402.48
36.4563 1458.6
36.5623 1437.05
36.6683 1395.49
36.7743 1445.45
36.8803 1439.93
36.9863 1468.14
37.0923 1441.11
37.1983 1486.8
37.3043 1468.75
37.4103 1431.02
37.5163 1430.76
37.6223 1409.01
37.7283 1462.42
37.8343 1487.66
37.9403 1434.38
38.0463 1438.21
38.1523 1490.53
38.2583 1387.12
38.3643 1415.32
38.4703 1429.76
38.5763 1415.19
38.6823 1400.28
38.7883 1417.83
38.8943 1456.39
39.0003 1391.71
39.1063 1392.8
39.2123 1406.3
39.3183 1482.77
39.4243 1455.38
39.5303 1418.92
39.6363 1495.62
39.7423 1488.64
39.8483 1420.07
39.9543 1457.88
40.0603 1409.23
40.1663 1478.07
40.2723 1439.9
40.3783 1456.05
40.4843 1448.35
40.5903 1440.31
40.6963 1462.45
40.8023 1506.88
40.9083 1427.55
41.0143 1504.08
41.1203 1512.38
41.2263 1476.95
41.3323 1489.44
41.4383 1459.07
41.5443 1439.29
41.6503 1478.7
41.7563 1497.7
41.8623 1529.04
41.9683 1512.92
42.0743 1478.66
42.1803 1496.12
42.2863 1503.39
42.3923 1476.71
42.4983 1521.06
42.6043 1544.91
42.7103 1603.14
42.8163 1474.76
42.9223 1511.21
43.0283 1489.01
43.1343 1524.22
43.2403 1616.51
43.3463 1542.02
43.4523 1541.11
43.5583 1543.81
43.6643 1564.68
43.7703 1565.1
43.8763 1666.05
43.9823 1523.65
44.0883 1565.85
44.1943 1601.6
44.3003 1575.42
44.4063 1595.28
44.5123 1526.29
44.6183 1519.7
44.7243 1625.04
44.8303 1557.23
44.9363 1577.56
45.0423 1639.53
45.1483 1602.46
45.2543 1613.91
45.3603 1620.39
45.4663 1584.6
45.5723 1608.38
45.6783 1597.29
45.7843 1659.74
45.8903 1704.11
45.9963 1671.95
46.1023 1644.76
46.2083 1635.62
46.3143 1598.91
46.4203 1628.81
46.5263 1648.8
46.6323 1644.83
46.7383 1674.56
46.8443 1684.6
46.9503 1643.94
47.0563 1696.16
47.1623 1643.02
47.2683 1715.8
47.3743 1682.66
47.4803 1675.37
47.5863 1677.49
47.6923 1772.21
47.7983 1710.56
47.9043 1652.17
48.0103 1634.61
48.1163 1676.12
48.2223 1699.65
48.3283 1778.46
48.4343 1708
48.5403 1776.5
48.6463 1745.94
48.7523 1775.28
48.8583 1740.89
48.9643 1726.16
49.0703 1752.28
49.1763 1752.65
49.2823 1704.01
49.3883 1834.47
49.4943 1880.78
49.6003 1983.84
49.7063 1929.87
49.8123 1943.84
49.9183 2006.12
50.0243 2074.37
50.1303 2267.48
50.2363 2343.74
50.3423 2725.23
50.4483 3062.2
50.5543 4025.04
50.6603 6254.1
50.7663 13065.5
50.8723 16244.6
50.9783 10823.7
51.0843 5666.81
51.1903 3962.04
51.2963 3226.62
51.4023 2899.3
51.5083 2761.72
51.6143 2820.77
51.7203 3322.03
51.8263 4485.81
51.9323 7453.91
52.0383 11210.1
52.1443 9248.2
52.2503 5367.67
52.3563 3328.71
52.4623 2537.69
52.5683 2267.59
52.6743 2086.28
52.7803 2023.05
52.8863 1945.98
52.9923 1920.98
53.0983 1904.79
53.2043 1904.38
53.3103 1845.25
53.4163 1834.08
53.5223 1820.73
53.6283 1855.9
53.7343 1802.73
53.8403 1787.71
53.9463 1805.6
54.0523 1821.16
54.1583 1755.73
54.2643 1806.91
54.3703 1769.12
54.4763 1887.83
54.5823 1783.5
54.6883 1791.57
54.7943 1832.76
54.9003 1867.99
55.0063 1732.23
55.1123 1861.65
55.2183 1841.17
55.3243 1777.42
55.4303 1819.64
55.5363 1851.69
55.6423 1819.79
55.7483 1781.66
55.8543 1834.14
55.9603 1827.92
56.0663 1780.82
56.1723 1827.63
56.2783 1852.83
56.3843 1827.56
56.4903 1836.92
56.5963 1863.35
56.7023 1834.7
56.8083 1866.66
56.9143 1809.54
57.0203 1838.48
57.1263 1889.22
57.2323 1870.45
57.3383 1895.77
57.4443 1904.58
57.5503 1850.16
57.6563 1920.98
57.7623 1919.23
57.8683 1909.09
57.9743 1979.43
58.0803 1964.12
58.1863 2048.42
58.2923 2097.81
58.3983 2170.6
58.5043 2248.87
58.6103 2349.93
58.7163 2599.3
58.8223 2813.87
58.9283 3291.28
59.0343 3932.11
59.1403 5072.8
59.2463 6365.15
59.3523 6495.49
59.4583 5138.77
59.5643 3648.6
59.6703 2666.48
59.7763 2319.25
59.8823 2169.62
59.9883 2107.14
60.0943 1977.97
60.2003 1924.38
60.3063 1904.48
60.4123 1813.26
60.5183 1810.72
60.6243 1726.64
60.7303 1814
60.8363 1718.32
60.9423 1829.64
61.0483 1706.13
61.1543 1701.35
61.2603 1737.98
61.3663 1806.94
61.4723 1722.01
61.5783 1703.53
61.6843 1691.01
61.7903 1718.13
61.8963 1726.03
62.0023 1727.89
62.1083 1734.9
62.2143 1717.21
62.3203 1739.42
62.4263 1724.71
62.5323 1659.95
62.6383 1707.21
62.7443 1679.7
62.8503 1655.84
62.9563 1644.4
63.0623 1703.21
63.1683 1684.2
63.2743 1643.49
63.3803 1678.05
63.4863 1598.48
63.5923 1670.29
63.6983 1621.15
63.8043 1641.57
63.9103 1643.9
64.0163 1622.69
64.1223 1603.98
64.2283 1644.95
64.3343 1672.93
64.4403 1667.03
64.5463 1677.33
64.6523 1609.5
64.7583 1648.47
64.8643 1648.54
64.9703 1644.71
65.0763 1662.76
65.1823 1646.88
65.2883 1661.04
65.3943 1617.51
65.5003 1589.51
65.6063 1592.87
65.7123 1601.85
65.8183 1733.29
65.9243 1676.82
66.0303 1666.53
66.1363 1699.69
66.2423 1672.5
66.3483 1671.22
66.4543 1649.87
66.5603 1656.04
66.6663 1754.51
66.7723 1732.01
66.8783 1773.77
66.9843 1626.72
67.0903 1689.67
67.1963 1703.7
67.3023 1704.08
67.4083 1726.51
67.5143 1640.31
67.6203 1640.27
67.7263 1642.19
67.8323 1752.06
67.9383 1683.47
68.0443 1653.26
68.1503 1683.02
68.2563 1636.43
68.3623 1639.47
68.4683 1663.69
68.5743 1623.46
68.6803 1653.42
68.7863 1650.91
68.8923 1634.61
68.9983 1631.08
69.1043 1660.9
69.2103 1621.47
69.3163 1584.65
69.4223 1662.96
69.5283 1626.78
69.6343 1601.82
69.7403 1615.22
69.8463 1615.75
69.9523 1647.58
70.0583 1602.79
70.1643 1638.63
70.2703 1605.83
70.3763 1642.86
70.4823 1614.18
70.5883 1641.85
70.6943 1653.47
70.8003 1657.01
70.9063 1582.4
71.0123 1616.31
71.1183 1639.75
71.2243 1608.43
71.3303 1674.76
71.4363 1615.83
71.5423 1646.57
71.6483 1650.98
71.7543 1579.48
71.8603 1614.43
71.9663 1697.67
72.0723 1602.82
72.1783 1641.7
72.2843 1572.48
72.3903 1649.27
72.4963 1639.97
72.6023 1594.89
72.7083 1679.82
72.8143 1600.24
72.9203 1621.38
73.0263 1674.78
73.1323 1608.52
73.2383 1637.72
73.3443 1631.15
73.4503 1644.79
73.5563 1658.13
73.6623 1671.56
73.7683 1654.1
73.8743 1642.54
73.9803 1700.63
74.0863 1614.21
74.1923 1691.79
74.2983 1680.17
74.4043 1665.69
74.5103 1700.67
74.6163 1631.14
74.7223 1658.57
74.8283 1697.32
74.9343 1693.68
75.0403 1644.7
75.1463 1686.05
75.2523 1685.54
75.3583 1706.09
75.4643 1695.73
75.5703 1667.02
75.6763 1689.24
75.7823 1655.48
75.8883 1740.08
75.9943 1746.76
76.1003 1767.25
76.2063 1811.08
76.3123 1901.97
76.4183 2010.91
76.5243 2048.42
76.6303 2161.87
76.7363 2101.78
76.8423 1983.43
76.9483 1893.01
77.0543 1814.31
77.1603 1716.93
77.2663 1686.53
77.3723 1711.89
77.4783 1673.38
77.5843 1682.06
77.6903 1711.81
77.7963 1706.9
77.9023 1638.14
78.0083 1678.14
78.1143 1624.4
78.2203 1692.5
78.3263 1704.87
78.4323 1630.25
78.5383 1658.73
78.6443 1676.61
78.7503 1698.43
78.8563 1574.25
78.9623 1618.15
79.0683 1689.54
79.1743 1620.68
79.2803 1671.69
79.3863 1628.54
79.4923 1638.27
79.5983 1649.63
79.7043 1669.81
79.8103 1701.1
79.9163 1668.71
80.0223 1709.55
80.1283 1620.74
80.2343 1684.89
80.3403 1673.74
80.4463 1686.61
80.5523 1684.08
80.6583 1666.08
80.7643 1628.42
80.8703 1644.23
80.9763 1652.71
81.0823 1641.45
81.1883 1640.94
81.2943 1642.4
81.4003 1672.82
81.5063 1720.5
81.6123 1646.46
81.7183 1585.78
81.8243 1695.86
81.9303 1672.81
82.0363 1668.69
82.1423 1671.55
82.2483 1674.52
82.3543 1699.15
82.4603 1626.81
82.5663 1694.57
82.6723 1670.31
82.7783 1637.86
82.8843 1671.98
82.9903 1645.3
83.0963 1668.71
83.2023 1661.81
83.3083 1708.07
83.4143 1653.58
83.5203 1720.55
83.6263 1684.78
83.7323 1643.61
83.8383 1713.71
83.9443 1761.84
84.0503 1666.32
84.1563 1706.55
84.2623 1763.48
84.3683 1686.49
84.4743 1727.1
84.5803 1742.49
84.6863 1735.24
84.7923 1639.12
84.8983 1690.09
85.0043 1784.44
85.1103 1717.98
85.2163 1730.38
85.3223 1719.77
85.4283 1737.02
85.5343 1736.33
85.6403 1727.61
85.7463 1730.9
85.8523 1787.04
85.9583 1746.62
86.0643 1758.7
86.1703 1697.04
86.2763 1758.05
86.3823 1750.72
86.4883 1740.15
86.5943 1706.27
86.7003 1739.71
86.8063 1768.77
86.9123 1694.6
87.0183 1781.68
87.1243 1684.46
87.2303 1726.15
87.3363 1831
87.4423 1772.97
87.5483 1779.9
87.6543 1764.87
87.7603 1765.7
87.8663 1774.94
87.9723 1870.41
88.0783 1791.11
88.1843 1841.13
88.2903 1873.19
88.3963 1963.06
88.5023 1983.48
88.6083 2155.26
88.7143 2517.84
88.8203 3078.88
88.9263 3687.85
89.0323 3514.17
89.1383 3155.26
89.2443 2804.4
89.3503 2389.61
89.4563 2149.06
89.5623 1900.47
89.6683 1921.98
89.7743 1928.91
89.8803 1848.7
89.9863 1901.1
90.0923 1752.71
90.1983 1745.73
90.3043 1765.07
90.4103 1727.25
90.5163 1739.51
90.6223 1744.4
90.7283 1680.16
90.8343 1702.79
90.9403 1672.04
91.0463 1707.83
91.1523 1681.8
91.2583 1708.82
91.3643 1741.08
91.4703 1731.75
91.5763 1704.22
91.6823 1734.52
91.7883 1730.65
91.8943 1722.37
92.0003 1682.13
92.1063 1699.01
92.2123 1701.76
92.3183 1714.3
92.4243 1664.85
92.5303 1655.37
92.6363 1661.86
92.7423 1648.95
92.8483 1657.79
92.9543 1645.79
93.0603 1672.66
93.1663 1650.03
93.2723 1666.25
93.3783 1681.43
93.4843 1663.99
93.5903 1676.31
93.6963 1672.62
93.8023 1685.69
93.9083 1636.35
94.0143 1684.06
94.1203 1718.57
94.2263 1690.65
94.3323 1672.74
94.4383 1578.67
94.5443 1714.36
94.6503 1693.71
94.7563 1666.94
94.8623 1696.38
94.9683 1675.24
95.0743 1680.07
95.1803 1597.81
95.2863 1730.92
95.3923 1660.28
95.4983 1676.63
95.6043 1690.01
95.7103 1708.23
95.8163 1692.13
95.9223 1711.33
96.0283 1626.52
96.1343 1674.01
96.2403 1665.57
96.3463 1673.01
96.4523 1680.52
96.5583 1671.31
96.6643 1712.25
96.7703 1697.15
96.8763 1684.81
96.9823 1679.7
97.0883 1734.1
97.1943 1689.62
97.3003 1752.37
97.4063 1635.62
97.5123 1641.86
97.6183 1709.44
97.7243 1806.32
97.8303 1727
97.9363 1716.98
98.0423 1739.64
98.1483 1765.02
98.2543 1829.23
98.3603 1763.28
98.4663 1930.59
98.5723 2030.34
98.6783 2166.69
98.7843 2394
98.8903 2668.72
98.9963 2649.85
99.1023 2481.15
99.2083 2301.09
99.3143 2090.19
99.4203 1917.9
99.5263 1903.41
99.6323 1804.42
99.7383 1749.86
99.8443 1758.22
99.9503 1737.76
100.056 1703.77
100.162 1638.14
100.268 1628.29
100.374 1680.11
100.48 1698.87
100.586 1695.74
100.692 1736.89
100.798 1672.69
100.904 1708.26
101.01 1684.17
101.116 1695.86
101.222 1729.59
101.328 1695.17
101.434 1767.84
101.54 1743.47
101.646 1683.97
101.752 1753.01
101.858 1772.78
101.964 1715.79
102.07 1764.5
102.176 1697.24
102.282 1747.07
102.388 1705.89
102.494 1700.51
102.6 1715.67
102.706 1747.58
102.812 1750.25
102.918 1765.69
103.024 1683.58
103.13 1736.94
103.236 1779.75
103.342 1706.03
103.448 1696.28
103.554 1693.34
103.66 1725.62
103.766 1675.54
103.872 1721.18
103.978 1695.99
104.084 1747.72
104.19 1704.62
104.296 1683.34
104.402 1708.1
104.508 1713.66
104.614 1632.89
104.72 1680.35
104.826 1673.25
104.932 1687.93
105.038 1725.87
105.144 1726.72
105.25 1686.77
105.356 1663.97
105.462 1680.13
105.568 1702.94
105.674 1661.66
105.78 1677.33
105.886 1652.37
105.992 1650.13
106.098 1724.23
106.204 1721.51
106.31 1678.76
106.416 1711.28
106.522 1730.78
106.628 1698.01
106.734 1708.76
106.84 1733.54
106.946 1644.92
107.052 1723.95
107.158 1685.45
107.264 1681.14
107.37 1654.82
107.476 1744.03
107.582 1642.7
107.688 1681.63
107.794 1724.24
107.9 1652.51
108.006 1699.02
108.112 1714.71
108.218 1726.71
108.324 1745.02
108.43 1810.26
108.536 1768.44
108.642 1731.64
108.748 1742.17
108.854 1776.08
108.96 1777.17
109.066 1805.48
109.172 1781.89
109.278 1832.26
109.384 1888.19
109.49 1963.26
109.596 1964.08
109.702 2086.87
109.808 2178.93
109.914 2418.51
110.02 2580.26
110.126 2873.04
110.232 3265.03
110.338 3471.73
110.444 3668.21
110.55 3440.05
110.656 3259.5
110.762 2953.38
110.868 2678.66
110.974 2355.89
111.08 2192.21
111.186 2019.05
111.292 1932.03
111.398 1823.42
111.504 1845.48
111.61 1787.83
111.716 1802.98
111.822 1741.45
111.928 1784.94
112.034 1763.66
112.14 1768.72
112.246 1672.79
112.352 1721.35
112.458 1775.2
112.564 1712.13
112.67 1752.69
112.776 1733.5
112.882 1727.85
112.988 1735.76
113.094 1769.46
113.2 1724.62
113.306 1719.98
113.412 1685.8
113.518 1734.18
113.624 1707.98
113.73 1723.37
113.836 1697.75
113.942 1730.7
114.048 1704.34
114.154 1713.07
114.26 1690.71
114.366 1717.32
114.472 1717.48
114.578 1717.19
114.684 1744.21
114.79 1713.45
114.896 1711.37
115.002 1753.16
115.108 1737.79
115.214 1755.76
115.32 1730.61
115.426 1699.21
115.532 1688.38
115.638 1765.12
115.744 1753.34
115.85 1714.68
115.956 1739.72
116.062 1726.87
116.168 1712.75
116.274 1712.39
116.38 1778.9
116.486 1710.27
116.592 1713.89
116.698 1757.32
116.804 1727.68
116.91 1693.29
117.016 1740.7
117.122 1762.9
117.228 1702.24
117.334 1810.88
117.44 1812.07
117.546 1747.78
117.652 1805.89
117.758 1874.22
117.864 2049.81
117.97 2144.2
118.076 2353.55
118.182 2424.42
118.288 2488.57
118.394 2334.05
118.5 2200.54
118.606 2210.1
118.712 2199.88
118.818 1945.4
118.924 1891.48
119.03 1829.56
119.136 1785.16
119.242 1725.7
119.348 1712.19
119.454 1812.2
119.56 1748.72
119.666 1730.22
119.772 1719.77
119.878 1724.79
119.931 1717.88